time,ax,ay,az,atotal
0.010938882827758789,-0.02,-0.03,0.3,0.3
0.016715049743652344,-0.25,0.18,0.02,0.3
0.026114225387573242,-0.46,0.34,-0.19,0.6
0.035996198654174805,-0.21,0.19,-0.07,0.29
0.04627704620361328,-0.01,-0.04,-0.2,0.2
0.056021928787231445,-0.04,-0.07,-0.41,0.41
0.0663900375366211,-0.04,-0.06,-0.18,0.19
0.07561802864074707,0.14,-0.13,0.0,0.19
0.08536410331726074,0.34,-0.15,-0.23,0.43
0.09594607353210449,0.59,-0.16,-0.41,0.73
0.10616421699523926,0.49,-0.01,-0.55,0.73
0.1171271800994873,-0.03,0.31,-0.76,0.82
0.1272599697113037,-0.64,0.69,-0.83,1.25
0.13684916496276855,-0.79,0.62,-0.62,1.18
0.1473691463470459,-0.3,0.12,-0.58,0.66
0.15710091590881348,-0.02,-0.23,-0.2,0.3
0.167280912399292,-0.15,-0.35,0.37,0.53
0.17717599868774414,-0.02,-0.3,0.3,0.42
0.1871201992034912,0.2,-0.16,0.0,0.25
0.19727206230163574,0.33,-0.14,-0.23,0.42
0.20732712745666504,0.38,-0.18,-0.26,0.49
0.2184751033782959,0.24,-0.09,-0.31,0.4
0.22760891914367676,0.11,0.0,-0.39,0.4
0.23740220069885254,0.07,0.09,-0.38,0.39
0.24674606323242188,0.04,0.11,-0.11,0.16
0.25631117820739746,0.01,0.04,0.03,0.05
0.2665131092071533,0.0,0.07,0.04,0.08
0.27625489234924316,0.07,-0.02,0.1,0.12
0.28588318824768066,0.14,-0.14,0.04,0.2
0.2973611354827881,0.11,-0.12,-0.12,0.2
0.3074781894683838,0.03,-0.08,-0.13,0.15
0.3165271282196045,-0.04,-0.02,0.08,0.09
0.3269689083099365,-0.13,0.02,0.23,0.26
0.33610987663269043,-0.07,0.09,0.23,0.25
0.3460350036621094,0.06,0.05,0.15,0.16
0.35608506202697754,0.08,0.02,0.01,0.08
0.3662600517272949,0.05,0.0,-0.18,0.18
0.3763291835784912,-0.05,-0.08,-0.19,0.21
0.38622212409973145,-0.08,-0.13,-0.15,0.21
0.3961179256439209,-0.02,-0.13,-0.08,0.15
0.40631699562072754,0.04,-0.07,0.04,0.09
0.41673922538757324,0.06,0.01,0.09,0.1
0.42623305320739746,0.1,0.0,0.06,0.11
0.4362208843231201,0.1,-0.02,-0.09,0.13
0.446303129196167,0.08,-0.02,-0.16,0.18
0.4563159942626953,0.06,-0.04,-0.19,0.2
0.46644091606140137,0.01,-0.07,-0.13,0.14
0.47643494606018066,-0.01,-0.04,-0.07,0.08
0.48694705963134766,0.01,-0.01,-0.08,0.08
0.49794888496398926,0.03,0.0,-0.05,0.05
0.5076019763946533,0.08,0.02,-0.02,0.08
0.5185091495513916,0.09,0.06,-0.08,0.13
0.5276539325714111,0.08,0.07,-0.11,0.15
0.5374300479888916,0.06,0.02,-0.09,0.11
0.5477640628814697,0.05,-0.05,-0.17,0.18
0.5575480461120605,0.05,-0.07,-0.28,0.29
0.5677011013031006,0.03,-0.04,-0.24,0.24
0.5776660442352295,0.02,-0.01,-0.09,0.09
0.5877230167388916,0.0,0.01,-0.03,0.03
0.5963170528411865,-0.01,0.02,-0.03,0.03
0.6077220439910889,-0.02,0.02,-0.03,0.04
0.6185050010681152,-0.02,0.02,-0.11,0.11
0.6278660297393799,0.06,-0.01,-0.16,0.17
0.6378018856048584,0.09,-0.03,-0.22,0.23
0.6478140354156494,0.09,-0.05,-0.17,0.19
0.6577398777008057,0.09,-0.07,-0.11,0.15
0.6677730083465576,0.1,-0.07,-0.1,0.15
0.6779921054840088,0.07,-0.02,-0.04,0.08
0.6878759860992432,0.03,0.06,0.08,0.1
0.6978662014007568,0.0,0.07,0.05,0.08
0.7081060409545898,-0.01,0.05,0.05,0.07
0.7191121578216553,0.0,0.07,0.09,0.11
0.7281310558319092,0.03,0.05,0.03,0.06
0.737835168838501,0.07,0.0,-0.05,0.08
0.748215913772583,0.08,-0.01,-0.08,0.11
0.7581069469451904,0.08,0.01,-0.04,0.09
0.7680490016937256,0.09,0.01,-0.06,0.1
0.7780249118804932,0.0,0.03,-0.15,0.15
0.7881782054901123,-0.07,-0.01,-0.17,0.18
0.7981970310211182,-0.09,0.03,-0.1,0.13
0.8084280490875244,-0.09,0.06,0.02,0.1
0.8188321590423584,-0.02,0.01,-0.03,0.03
0.8283250331878662,0.06,-0.02,-0.06,0.08
0.8380930423736572,0.1,-0.01,-0.05,0.11
0.8481619358062744,0.06,0.0,-0.07,0.09
0.8582541942596436,0.01,0.0,-0.09,0.09
0.8685441017150879,-0.04,0.03,-0.05,0.07
0.8781559467315674,0.0,0.0,-0.12,0.12
0.8882761001586914,0.07,-0.05,-0.16,0.18
0.8983120918273926,0.07,0.01,-0.08,0.1
0.9084289073944092,0.03,0.05,-0.05,0.07
0.9190261363983154,0.03,0.03,-0.08,0.09
0.9286270141601562,0.06,0.04,-0.08,0.1
0.9381930828094482,0.08,0.04,-0.12,0.14
0.9484388828277588,0.03,0.01,-0.15,0.15
0.9584569931030273,-0.03,0.04,-0.15,0.15
0.9685990810394287,-0.02,0.05,-0.1,0.11
0.9784550666809082,-0.01,0.04,-0.08,0.09
0.9886620044708252,0.03,0.02,-0.07,0.07
0.998406171798706,0.06,0.02,-0.03,0.06
1.0072381496429443,0.08,0.0,-0.03,0.08
1.019299030303955,0.06,0.0,-0.17,0.18
1.0285389423370361,-0.03,-0.01,-0.52,0.52
1.0388329029083252,-0.05,-0.04,-0.26,0.26
1.0490670204162598,-0.01,-0.09,-0.14,0.16
1.0588881969451904,-0.02,-0.01,-0.06,0.06
1.0687990188598633,-0.03,0.05,0.03,0.06
1.0786800384521484,-0.11,0.04,0.07,0.13
1.088878870010376,-0.13,0.06,0.29,0.32
1.0988051891326904,-0.03,0.02,0.29,0.29
1.1090590953826904,0.05,0.03,0.41,0.41
1.1197211742401123,0.0,0.01,0.33,0.33
1.1289870738983154,-0.01,0.03,0.02,0.03
1.1421220302581787,0.0,-0.07,-0.28,0.28
1.1653859615325928,0.0,-0.08,-0.45,0.45
1.1672441959381104,0.03,-0.04,-0.33,0.33
1.1697990894317627,0.12,0.0,-0.15,0.19
1.1781489849090576,0.13,0.05,-0.05,0.14
1.188227891921997,-0.02,0.07,-0.15,0.16
1.2012641429901123,-0.07,-0.01,-0.22,0.23
1.2078990936279297,0.01,-0.06,-0.17,0.18
1.217928171157837,0.08,-0.09,-0.05,0.13
1.2281811237335205,0.11,-0.12,-0.03,0.16
1.2381842136383057,0.07,-0.09,-0.07,0.13
1.248784065246582,0.15,-0.1,-0.02,0.18
1.2579710483551025,0.2,-0.03,-0.01,0.2
1.2683331966400146,0.08,0.11,-0.07,0.15
1.2783880233764648,-0.18,0.17,-0.11,0.27
1.2884180545806885,-0.28,0.09,-0.24,0.37
1.3001492023468018,-0.17,0.05,-0.24,0.29
1.30833101272583,-0.01,0.04,-0.14,0.14
1.3188650608062744,0.09,-0.04,-0.01,0.09
1.3287310600280762,0.08,-0.08,0.08,0.13
1.3384389877319336,0.04,-0.08,0.05,0.1
1.3489491939544678,-0.03,-0.08,-0.04,0.09
1.3582651615142822,-0.1,-0.15,-0.17,0.24
1.368927001953125,-0.14,-0.21,-0.46,0.52
1.378598928451538,-0.23,-0.26,-0.77,0.84
1.3887178897857666,-0.64,-0.43,-0.76,1.08
1.398879051208496,-1.35,-1.63,0.04,2.11
1.408276081085205,-1.27,-2.1,0.34,2.47
1.4187240600585938,-1.25,-1.8,1.46,2.63
1.4287700653076172,-1.2,-1.74,1.48,2.58
1.438737154006958,-1.24,-1.78,1.36,2.56
1.4490001201629639,-1.46,-1.91,1.65,2.91
1.4584190845489502,-1.3,-2.17,1.16,2.78
1.4686980247497559,-1.03,-2.4,0.9,2.76
1.479006052017212,-0.91,-2.62,0.53,2.82
1.4890940189361572,-0.84,-2.38,-0.4,2.55
1.5000300407409668,-0.73,-1.81,-1.28,2.33
1.5087180137634277,-0.65,-1.36,-1.8,2.34
1.519071102142334,-0.59,-1.05,-2.36,2.64
1.529130220413208,-0.58,-0.75,-2.77,2.92
1.5390651226043701,-0.3,-1.18,-2.78,3.03
1.549983024597168,0.09,-1.93,-2.59,3.23
1.5587151050567627,0.2,-2.23,-2.26,3.18
1.569321870803833,0.37,-2.29,-1.51,2.76
1.5791840553283691,0.21,-1.97,-0.39,2.01
1.5893728733062744,-0.11,-1.28,0.4,1.34
1.6006381511688232,-0.3,2.51,1.11,2.76
1.6093299388885498,-0.81,9.77,2.34,10.07
1.6195662021636963,-1.11,12.25,2.27,12.5
1.6293680667877197,-0.12,8.4,0.75,8.43
1.6392838954925537,1.28,4.04,-0.23,4.24
1.6500530242919922,1.86,0.87,-0.91,2.24
1.6589090824127197,1.65,-1.25,-0.73,2.19
1.669213056564331,1.62,-2.08,0.12,2.63
1.6793549060821533,1.73,-1.77,0.96,2.65
1.6895790100097656,1.93,-1.08,1.5,2.67
1.6998441219329834,1.87,-0.62,1.67,2.58
1.7091529369354248,1.57,-0.46,1.42,2.16
1.7193560600280762,1.09,-0.46,0.96,1.52
1.7296600341796875,0.59,-0.45,0.62,0.96
1.7396728992462158,0.22,-0.5,0.41,0.68
1.7499980926513672,-0.01,-0.46,0.33,0.56
1.7591140270233154,-0.11,-0.36,0.35,0.51
1.769223928451538,-0.18,-0.31,0.4,0.53
1.7795898914337158,-0.25,-0.22,0.45,0.55
1.7898030281066895,-0.32,-0.09,0.43,0.54
1.8000891208648682,-0.39,-0.02,0.38,0.54
1.8092591762542725,-0.48,-0.02,0.35,0.59
1.8200008869171143,-0.65,0.1,0.27,0.71
1.829714059829712,-0.79,0.18,0.24,0.84
1.8396780490875244,-0.85,0.1,0.33,0.91
1.8504021167755127,-0.75,0.05,0.3,0.8
1.8592169284820557,-0.68,-0.06,0.2,0.71
1.8697631359100342,-0.57,-0.05,0.25,0.62
1.879791021347046,-0.5,0.11,0.09,0.51
1.8898141384124756,-0.28,0.24,-0.1,0.38
1.9017879962921143,-0.16,0.2,-0.14,0.29
1.9095230102539062,-0.06,0.11,-0.13,0.18
1.9199302196502686,0.03,0.08,-0.09,0.12
1.9298150539398193,0.0,0.21,-0.07,0.22
1.9399402141571045,-0.07,0.21,-0.13,0.25
1.9505980014801025,-0.17,0.24,-0.23,0.37
1.9595410823822021,-0.22,0.34,-0.42,0.58
1.9698832035064697,-0.17,0.3,-0.66,0.74
1.9799139499664307,-0.08,0.27,-0.73,0.78
1.990049123764038,-0.07,0.39,-0.79,0.88
2.0006701946258545,-0.01,0.48,-0.93,1.04
2.00974702835083,-0.06,0.4,-1.02,1.09
2.0203280448913574,0.0,0.25,-1.08,1.1
2.0302131175994873,0.03,0.07,-1.05,1.05
2.04008412361145,0.05,0.19,-0.96,0.97
2.0504701137542725,0.01,0.57,-0.73,0.92
2.0596649646759033,0.01,0.99,-0.45,1.08
2.0702860355377197,0.22,1.08,-0.16,1.11
2.0801939964294434,0.19,1.05,0.22,1.08
2.09040904045105,0.27,1.13,0.51,1.26
2.1006219387054443,0.25,1.16,0.89,1.48
2.1099421977996826,0.15,1.09,1.21,1.63
2.1206300258636475,-0.07,1.15,1.76,2.1
2.1304209232330322,-0.31,0.97,2.42,2.62
2.140493154525757,-0.42,0.81,3.22,3.34
2.150606870651245,-0.53,0.65,4.55,4.62
2.1599318981170654,-0.42,0.13,5.61,5.62
2.1702780723571777,-0.27,0.34,6.04,6.05
2.180299997329712,-0.01,0.73,5.44,5.48
2.1905429363250732,0.64,0.62,2.66,2.8
2.2007009983062744,1.76,-0.21,-3.04,3.51
2.2102320194244385,2.1,-0.7,-7.29,7.61
2.220306158065796,1.95,-0.92,-6.08,6.45
2.230682134628296,2.01,-1.36,-5.48,5.99
2.240746021270752,1.56,-3.77,-16.75,17.23
2.2506980895996094,0.81,-0.62,-10.05,10.1
2.26029896736145,1.2,-0.22,4.31,4.47
2.270703077316284,0.6,-1.33,5.2,5.4
2.2806642055511475,-0.22,-0.05,1.12,1.14
2.290848970413208,-0.06,0.37,-3.69,3.7
2.3014440536499023,1.03,-0.07,-3.34,3.49
2.3104910850524902,1.83,-0.7,-1.6,2.52
2.321043014526367,2.02,-0.69,-1.03,2.37
2.330876111984253,1.96,-0.58,-0.73,2.17
2.3407630920410156,1.83,-0.55,-0.61,2.0
2.351269006729126,1.79,-0.74,-0.57,2.01
2.360814094543457,1.81,-0.97,-0.54,2.12
2.3707969188690186,1.81,-1.57,-0.44,2.43
2.380887031555176,1.65,-2.47,-0.25,2.98
2.3910460472106934,1.3,-3.51,0.1,3.74
2.4020841121673584,0.81,-4.59,0.55,4.69
2.4110019207000732,0.36,-5.48,1.04,5.58
2.4212560653686523,-0.02,-6.25,1.57,6.44
2.4310081005096436,-0.35,-6.99,2.19,7.33
2.4411110877990723,-0.64,-7.57,2.78,8.08
2.4521119594573975,-0.9,-8.01,3.33,8.72
2.4610490798950195,-1.11,-8.33,3.8,9.22
2.4711191654205322,-1.2,-8.55,4.16,9.58
2.4810290336608887,-1.21,-8.7,4.16,9.71
2.4912121295928955,-1.14,-8.71,3.62,9.5
2.501763105392456,-0.94,-8.44,2.64,8.89
2.5109570026397705,-0.82,-7.65,1.42,7.82
2.521484136581421,-0.95,-6.61,0.4,6.68
2.5312039852142334,-0.97,-5.56,-0.43,5.66
2.5413401126861572,-1.02,-3.76,-1.2,4.07
2.5518500804901123,-0.85,-1.21,-1.97,2.46
2.56131911277771,-0.61,2.52,-3.09,4.03
2.571526050567627,-0.62,7.89,-4.69,9.19
2.5814831256866455,-0.9,13.07,-6.28,14.52
2.59220290184021,-1.11,17.16,-6.97,18.55
2.6026599407196045,-0.91,21.1,-7.02,22.25
2.6119801998138428,-0.33,23.01,-6.81,23.99
2.622091054916382,0.7,23.35,-6.13,24.15
2.6317241191864014,1.74,22.31,-5.22,22.97
2.641814947128296,2.03,21.05,-4.65,21.65
2.6516149044036865,1.14,21.75,-4.25,22.19
2.6619350910186768,-0.43,22.78,-4.04,23.13
2.672416925430298,-1.77,22.8,-3.66,23.15
2.681957960128784,-3.05,22.86,-2.74,23.22
2.691941022872925,-4.17,22.34,-1.75,22.79
2.7018911838531494,-5.02,20.81,-1.34,21.44
2.7121379375457764,-5.46,18.64,-1.03,19.45
2.7221810817718506,-5.77,16.41,-0.59,17.4
2.7316160202026367,-5.82,13.31,0.4,14.53
2.7417140007019043,-4.74,9.43,0.98,10.59
2.7517430782318115,-2.87,5.13,1.18,5.99
2.7612740993499756,-1.26,0.99,1.16,1.97
2.771591901779175,-0.18,-2.79,1.04,2.98
2.781759023666382,0.33,-5.64,1.03,5.74
2.7917020320892334,0.55,-7.64,1.3,7.76
2.801872968673706,0.25,-8.91,1.93,9.12
2.811401128768921,0.0,-9.8,2.65,10.15
2.8216159343719482,0.07,-10.48,3.31,10.99
2.8318979740142822,0.34,-11.09,3.76,11.71
2.841917037963867,-0.16,-11.19,4.93,12.22
2.8523850440979004,-0.36,-11.28,4.83,12.27
2.8619191646575928,-0.45,-11.52,5.18,12.63
2.872148036956787,-0.6,-11.49,5.58,12.78
2.8819291591644287,-0.64,-11.43,4.82,12.42
2.8919851779937744,-0.38,-11.84,3.64,12.39
2.9031641483306885,-0.32,-11.94,3.5,12.44
2.9121010303497314,-0.43,-11.73,3.3,12.19
2.9224190711975098,-0.49,-11.66,2.98,12.04
2.932288885116577,-0.7,-11.66,2.93,12.04
2.942209005355835,-1.1,-11.74,2.92,12.14
2.953479051589966,-1.64,-11.53,2.87,11.99
2.9620790481567383,-2.15,-11.3,2.76,11.82
2.972025156021118,-2.76,-10.93,2.64,11.57
2.982116937637329,-3.28,-10.55,2.55,11.33
2.992072105407715,-3.45,-10.43,2.11,11.18
3.003350019454956,-3.65,-10.16,1.94,10.96
3.0119988918304443,-3.82,-10.06,1.94,10.93
3.022588014602661,-3.91,-10.01,2.09,10.94
3.032263994216919,-4.11,-9.91,2.19,10.94
3.0422720909118652,-4.44,-9.79,2.26,10.98
3.0531070232391357,-4.68,-9.64,2.16,10.93
3.062014102935791,-4.75,-9.57,1.84,10.84
3.072571039199829,-4.93,-9.53,1.58,10.84
3.082367181777954,-5.08,-9.54,1.27,10.88
3.092360019683838,-5.2,-9.57,0.8,10.92
3.1034419536590576,-5.27,-9.51,0.28,10.87
3.112145185470581,-5.25,-9.44,-0.2,10.8
3.1229522228240967,-5.24,-9.33,-0.63,10.71
3.1325929164886475,-5.27,-9.11,-1.08,10.57
3.142717123031616,-5.38,-8.82,-1.33,10.41
3.1538209915161133,-5.29,-8.6,-1.83,10.26
3.1626031398773193,-4.76,-8.34,-0.99,9.65
3.172701120376587,-4.69,-7.32,-0.35,8.7
3.1825129985809326,-4.56,-6.36,-4.96,9.26
3.192732095718384,-4.12,-6.02,-5.25,8.98
3.203007936477661,-3.41,-6.51,0.27,7.35
3.2121078968048096,-2.46,-6.91,3.78,8.25
3.2230730056762695,-1.7,-6.59,6.29,9.26
3.232693910598755,0.94,-0.02,7.97,8.02
3.2428319454193115,11.49,26.28,6.59,29.42
3.2535400390625,28.81,65.92,-11.29,72.82
3.2630789279937744,27.17,62.55,-25.7,72.87
3.2723240852355957,8.41,25.08,-10.91,28.61
3.282804012298584,1.15,8.08,4.45,9.29
3.2928359508514404,2.4,6.48,4.83,8.43
3.3037002086639404,8.46,9.61,-2.06,12.96
3.3133561611175537,8.82,11.28,-0.59,14.33
3.3230700492858887,7.35,10.2,0.91,12.6
3.3329951763153076,6.87,8.73,-1.37,11.19
3.343029022216797,6.21,7.84,-3.1,10.47
3.3531339168548584,4.93,7.32,-3.05,9.33
3.362529993057251,3.7,6.75,-1.58,7.85
3.3728091716766357,2.95,6.19,-0.39,6.86
3.382910966873169,2.5,5.45,0.3,6.0
3.393263101577759,2.2,4.44,0.75,5.01
3.4043240547180176,1.98,3.37,1.01,4.03
3.41292405128479,1.74,2.31,1.1,3.09
3.423434019088745,1.45,1.28,1.04,2.19
3.433281183242798,1.12,0.23,0.93,1.47
3.443074941635132,0.81,-0.68,0.77,1.3
3.4535491466522217,0.54,-1.5,0.51,1.67
3.462769031524658,0.3,-2.16,0.23,2.19
3.472764015197754,0.06,-2.78,-0.07,2.78
3.4831740856170654,-0.17,-3.3,-0.35,3.32
3.4932210445404053,-0.39,-3.75,-0.62,3.82
3.5036699771881104,-0.55,-4.11,-0.82,4.22
3.513122081756592,-0.66,-4.35,-0.99,4.5
3.5236480236053467,-0.73,-4.48,-1.09,4.66
3.533198118209839,-0.91,-4.72,-1.09,4.92
3.543529987335205,-1.0,-4.75,-1.1,4.97
3.5543270111083984,-0.96,-4.47,-1.07,4.69
3.56305193901062,-0.94,-4.19,-1.04,4.41
3.5734570026397705,-0.93,-3.9,-0.95,4.12
3.5833818912506104,-0.89,-3.56,-0.81,3.75
3.5934720039367676,-0.76,-3.13,-0.68,3.29
3.6037709712982178,-0.61,-2.67,-0.58,2.79
3.6132781505584717,-0.47,-2.29,-0.47,2.38
3.623807191848755,-0.37,-2.0,-0.39,2.07
3.6336510181427,-0.29,-1.77,-0.36,1.82
3.643742084503174,-0.2,-1.6,-0.39,1.65
3.65434193611145,-0.1,-1.36,-0.39,1.41
3.663248062133789,-0.05,-1.26,-0.43,1.33
3.673784017562866,-0.01,-1.17,-0.4,1.23
3.6835849285125732,-0.05,-1.32,-0.35,1.36
3.6937670707702637,-0.17,-1.69,-0.16,1.7
3.7050092220306396,-0.3,-2.06,-0.03,2.08
3.7138609886169434,-0.45,-2.59,-0.01,2.62
3.724083185195923,-0.62,-3.22,0.0,3.27
3.733886957168579,-0.8,-3.93,0.04,4.01
3.7438409328460693,-0.99,-4.69,0.08,4.79
3.7548301219940186,-1.12,-5.46,0.19,5.57
3.7634918689727783,-1.17,-6.25,0.6,6.38
3.7740180492401123,-1.18,-6.87,1.73,7.18
3.7837650775909424,-1.1,-7.38,3.17,8.1
3.79388689994812,-0.89,-7.75,5.15,9.34
3.80470609664917,-0.6,-8.2,7.1,10.86
3.8141350746154785,-0.31,-8.64,7.87,11.69
3.824359178543091,-0.18,-8.91,7.0,11.33
3.834036111831665,-0.27,-9.03,5.38,10.51
3.8441100120544434,-0.3,-9.21,3.91,10.01
3.855220079421997,-0.38,-9.36,3.22,9.9
3.864053964614868,-0.63,-9.53,2.7,9.92
3.874282121658325,-1.01,-9.76,2.64,10.16
3.884108066558838,-1.58,-9.7,2.17,10.06
3.894322156906128,-2.08,-8.27,2.3,8.83
3.9051690101623535,-1.66,-6.17,2.2,6.75
3.914283037185669,-0.89,-4.13,0.97,4.33
3.924414873123169,0.15,-0.23,-1.27,1.29
3.9341959953308105,1.86,9.63,-4.62,10.84
3.944679021835327,3.44,34.87,-10.51,36.58
3.9554600715637207,2.88,53.99,-11.58,55.29
3.964319944381714,0.45,37.92,-8.58,38.88
3.974500894546509,-0.89,20.31,-7.76,21.76
3.9848711490631104,0.49,14.94,-7.42,16.68
3.994935989379883,1.7,15.34,-6.59,16.78
4.004658937454224,1.73,16.53,-5.48,17.5
4.0139970779418945,1.61,17.12,-4.73,17.83
4.0242180824279785,1.8,17.66,-4.97,18.43
4.0343849658966064,2.17,18.17,-5.98,19.25
4.044751882553101,2.29,18.06,-6.4,19.29
4.054692983627319,2.15,17.48,-6.29,18.7
4.064355134963989,1.65,16.38,-5.45,17.34
4.074369192123413,1.1,14.47,-4.18,15.1
4.084246873855591,0.76,12.62,-2.97,12.98
4.0944600105285645,0.45,10.78,-1.85,10.94
4.10465407371521,0.15,8.9,-1.05,8.96
4.114383935928345,0.03,7.49,-0.66,7.51
4.124388933181763,0.07,5.63,-0.31,5.63
4.134661912918091,0.08,3.24,0.0,3.24
4.144850969314575,0.06,0.54,0.15,0.56
4.1551220417022705,-0.24,-2.45,0.37,2.48
4.164366960525513,-0.74,-5.03,0.62,5.12
4.174755096435547,-1.16,-6.7,1.0,6.87
4.1847310066223145,-1.58,-7.85,1.4,8.12
4.194902181625366,-1.97,-8.6,2.15,9.08
4.205373048782349,-2.2,-9.19,3.81,10.18
4.214590072631836,-2.52,-9.44,5.19,11.06
4.2249650955200195,-2.66,-9.63,5.13,11.23
4.23493218421936,-2.7,-9.77,5.23,11.4
4.245019197463989,-2.75,-9.97,5.06,11.51
4.255630016326904,-2.78,-10.14,4.66,11.5
4.2646849155426025,-2.85,-10.17,4.2,11.36
4.27515721321106,-2.98,-10.05,3.67,11.1
4.284838914871216,-2.98,-10.06,3.27,10.98
4.294950008392334,-2.9,-10.31,2.92,11.1
4.305544137954712,-3.0,-10.35,2.62,11.08
4.314806222915649,-3.25,-10.22,2.65,11.04
4.324971914291382,-3.55,-10.14,3.12,11.18
4.335170030593872,-3.81,-10.13,3.79,11.46
4.345257997512817,-4.21,-10.23,4.68,12.01
4.355489015579224,-4.59,-10.11,5.64,12.45
4.364768028259277,-4.95,-9.83,6.08,12.57
4.374995946884155,-5.16,-9.6,6.15,12.51
4.385159015655518,-5.24,-9.46,5.95,12.34
4.395156145095825,-5.17,-9.45,5.4,12.04
4.405439138412476,-5.02,-9.57,4.67,11.77
4.415122032165527,-4.82,-9.69,4.0,11.53
4.4252800941467285,-4.68,-9.72,3.43,11.32
4.435270071029663,-4.6,-9.71,2.96,11.14
4.445486068725586,-4.58,-9.64,2.7,11.0
4.456499099731445,-4.6,-9.56,2.58,10.91
4.4649741649627686,-4.61,-9.51,2.59,10.88
4.475028038024902,-4.7,-9.47,2.58,10.88
4.485305070877075,-4.77,-9.46,2.58,10.9
4.495575189590454,-4.78,-9.46,2.67,10.93
4.506436109542847,-4.82,-9.53,2.75,11.02
4.51543116569519,-4.93,-9.76,2.81,11.28
4.52590799331665,-4.95,-9.94,2.86,11.46
4.535603046417236,-4.93,-10.05,2.87,11.55
4.545547008514404,-4.92,-10.15,2.85,11.63
4.555668115615845,-4.85,-10.31,2.85,11.74
4.5652830600738525,-4.72,-10.43,2.79,11.78
4.575448989868164,-4.62,-10.42,2.8,11.73
4.585519075393677,-4.56,-10.27,3.13,11.66
4.595729112625122,-4.56,-9.84,3.47,11.38
4.606155157089233,-4.38,-9.11,4.0,10.87
4.6154420375823975,-3.97,-8.52,5.0,10.64
4.6259119510650635,-3.77,-7.4,6.88,10.78
4.635797023773193,-3.64,-4.58,9.12,10.83
4.645859956741333,-1.63,14.65,6.88,16.26
4.656346082687378,5.96,64.09,-6.69,64.71
4.665534019470215,4.07,69.77,-16.06,71.71
4.675879001617432,1.88,44.06,-2.78,44.18
4.685635089874268,2.03,11.14,-5.08,12.41
4.695923089981079,3.96,4.99,-7.31,9.69
4.706194162368774,8.17,4.41,-6.17,11.14
4.7158119678497314,15.29,3.92,-5.42,16.68
4.726203203201294,19.21,8.02,-4.25,21.24
4.735750913619995,15.94,11.28,-2.19,19.64
4.745979070663452,8.76,9.17,-5.59,13.85
4.756293058395386,1.81,4.47,-11.63,12.59
4.765696048736572,-0.14,3.27,-14.13,14.5
4.775629997253418,0.21,5.31,-12.7,13.76
4.785919904708862,0.37,6.24,-9.4,11.28
4.796223878860474,0.57,5.8,-6.64,8.83
4.806647062301636,0.66,5.0,-4.71,6.9
4.8158628940582275,0.68,3.82,-3.01,4.91
4.826358079910278,0.74,2.89,-1.73,3.44
4.835943937301636,0.78,2.39,-0.77,2.62
4.846271991729736,0.77,1.71,0.02,1.87
4.85711407661438,0.64,0.86,0.69,1.27
4.865889072418213,0.41,0.13,1.34,1.4
4.876136064529419,0.13,-0.49,1.89,1.95
4.88615608215332,-0.19,-1.09,2.43,2.67
4.896177053451538,-0.44,-1.74,3.15,3.62
4.906416177749634,-0.7,-2.35,3.41,4.2
4.916157007217407,-1.03,-2.92,3.15,4.41
4.926486015319824,-1.59,-3.03,2.36,4.15
4.936407089233398,-2.08,-2.58,1.55,3.65
4.946510076522827,-2.39,-1.96,1.15,3.29
4.956566095352173,-2.65,-1.24,0.98,3.08
4.966088056564331,-2.86,-0.54,0.97,3.06
4.9761059284210205,-2.97,-0.03,1.03,3.14
4.986358880996704,-3.02,0.14,1.07,3.2
4.996619939804077,-2.91,-0.05,1.13,3.12
5.007289171218872,-2.61,-0.54,1.17,2.91
5.016420125961304,-2.2,-0.86,1.18,2.64
5.026215076446533,-1.88,-0.97,1.21,2.43
5.036265134811401,-1.63,-1.08,1.34,2.37
5.046743154525757,-1.37,-1.31,1.26,2.27
5.057060956954956,-1.15,-1.47,1.13,2.18
5.066424131393433,-1.02,-1.45,1.06,2.06
5.076211214065552,-1.0,-1.32,1.06,1.96
5.086578130722046,-0.98,-1.1,1.14,1.86
5.096812963485718,-0.87,-0.83,1.22,1.71
5.107150077819824,-0.74,-0.63,1.29,1.61
5.116582155227661,-0.62,-0.6,1.28,1.54
5.127134084701538,-0.53,-0.76,1.19,1.5
5.136812925338745,-0.46,-0.98,1.09,1.53
5.147088050842285,-0.39,-1.13,0.96,1.53
5.156977891921997,-0.31,-1.2,0.79,1.46
5.166388988494873,-0.19,-1.31,0.64,1.47
5.176690101623535,-0.01,-1.47,0.4,1.52
5.186848878860474,0.14,-1.42,0.28,1.45
5.197001218795776,0.29,-1.3,0.25,1.35
5.207350969314575,0.38,-1.27,0.18,1.33
5.216882944107056,0.44,-1.31,0.2,1.39
5.22731614112854,0.57,-1.26,0.02,1.38
5.237040996551514,0.68,-1.15,-0.25,1.35
5.2472240924835205,0.84,-0.85,-0.78,1.42
5.257849931716919,1.04,-0.5,-1.75,2.09
5.2665910720825195,1.13,-0.31,-2.7,2.94
5.2772181034088135,1.1,-0.31,-3.3,3.49
5.287081003189087,1.0,-0.47,-3.38,3.55
5.297179937362671,0.88,-0.53,-3.21,3.37
5.307088136672974,0.75,-0.64,-2.87,3.03
5.31685209274292,0.67,-0.75,-2.3,2.51
5.327317953109741,0.68,-0.68,-1.67,1.92
5.337069034576416,0.68,-0.56,-1.42,1.67
5.347110986709595,0.6,-0.51,-1.49,1.68
5.357003927230835,0.54,-0.64,-1.2,1.46
5.366818189620972,0.61,-0.65,-1.37,1.63
5.377432107925415,0.57,-0.57,-1.33,1.55
5.387317895889282,0.44,-0.43,-0.93,1.11
5.397515058517456,0.12,-0.18,-0.53,0.57
5.4075939655303955,-0.13,0.4,-0.5,0.65
5.417427062988281,-0.35,0.7,-0.47,0.91
5.427425146102905,-1.81,0.36,-0.91,2.05
5.4375669956207275,-2.57,1.13,-1.76,3.31
5.447404146194458,-1.09,1.42,-1.17,2.13
5.458215951919556,-0.88,0.33,-0.24,0.97
5.4675750732421875,-0.66,-0.03,0.26,0.71
5.477658987045288,-0.34,-0.03,0.67,0.75
5.487336874008179,-0.15,-0.19,0.67,0.71
5.497697114944458,-0.81,-1.89,-1.13,2.34
5.508358001708984,-1.05,-2.4,-0.73,2.71
5.517630100250244,0.68,-0.39,1.63,1.8
5.527662038803101,1.13,0.69,2.79,3.08
5.537396192550659,0.69,0.58,-0.01,0.9
5.547507047653198,0.67,0.95,0.44,1.24
5.557810068130493,0.83,0.87,1.48,1.9
5.567569971084595,0.77,0.1,0.47,0.9
5.5775768756866455,0.77,-0.41,-0.26,0.91
5.587628126144409,0.67,-0.57,-0.26,0.91
5.597910165786743,0.29,-0.41,-0.17,0.53
5.608772039413452,-0.06,-0.48,0.53,0.71
5.617812871932983,-0.26,-0.48,1.31,1.41
5.627994060516357,-0.49,-0.38,1.56,1.67
5.637891054153442,-0.69,-0.32,1.45,1.63
5.647845029830933,-0.82,-0.25,1.15,1.43
5.6586689949035645,-0.84,-0.24,0.85,1.21
5.667841196060181,-0.75,-0.18,0.61,0.98
5.67792820930481,-0.55,-0.1,0.52,0.76
5.6877219676971436,-0.2,-0.1,0.13,0.25
5.6981360912323,-0.29,0.05,-0.38,0.48
5.709031105041504,-0.73,0.08,-0.28,0.78
5.718116044998169,-0.65,0.32,0.36,0.8
5.7283079624176025,-0.43,0.87,0.38,1.04
5.738095045089722,-0.33,1.44,0.21,1.49
5.748122930526733,-0.04,1.55,0.02,1.55
5.7588160037994385,0.19,1.18,-0.6,1.33
5.769330024719238,0.42,0.7,-0.76,1.11
5.779767990112305,0.51,0.28,-0.46,0.74
5.789592027664185,0.35,-0.29,-0.11,0.46
5.800692081451416,0.03,-0.82,0.22,0.84
5.812900066375732,-0.2,-0.75,0.42,0.88
5.819561004638672,0.24,-0.81,0.6,1.03
5.829843997955322,0.66,-0.82,0.15,1.06
5.839738130569458,0.71,-0.4,-0.77,1.12
5.849743127822876,0.78,0.25,-1.21,1.46
5.860428094863892,0.85,0.55,-0.76,1.26
5.869258165359497,0.85,0.48,-0.72,1.21
5.879680871963501,0.84,0.3,-0.57,1.05
5.889703035354614,0.98,0.24,0.11,1.01
5.9000160694122314,1.3,0.46,0.79,1.58
5.9111011028289795,1.61,0.83,0.81,1.98
5.91952919960022,1.3,0.88,0.42,1.62
5.930194139480591,0.83,0.96,0.16,1.27
5.9399659633636475,0.39,1.23,-0.32,1.32
5.949765920639038,0.58,1.05,0.09,1.2
5.960658073425293,0.78,0.85,-0.04,1.15
5.969545125961304,0.82,1.09,0.33,1.4
5.979716062545776,0.75,1.84,0.68,2.1
5.9900062084198,0.73,2.8,0.26,2.9
6.0003039836883545,0.82,3.37,-0.14,3.47
6.011317014694214,1.03,3.54,-0.18,3.69
6.02002215385437,1.19,3.54,-0.19,3.73
6.03036093711853,1.19,3.53,-0.14,3.72
6.04023003578186,1.01,3.31,0.28,3.47
6.050235986709595,0.89,2.84,0.4,3.0
6.0618720054626465,0.72,2.29,0.27,2.41
6.070156097412109,0.58,1.84,0.45,1.98
6.080363035202026,0.35,1.78,0.57,1.9
6.090229034423828,-0.26,1.67,0.93,1.92
6.100194215774536,-0.58,1.35,1.39,2.02
6.111275911331177,-0.61,0.83,1.06,1.47
6.12035608291626,-0.6,-0.08,0.86,1.05
6.130382061004639,-0.58,-1.29,0.77,1.61
6.140300035476685,-0.51,-2.09,0.73,2.27
6.150469064712524,-0.34,-3.35,1.77,3.8
6.1616740226745605,0.02,-3.87,1.83,4.28
6.170220136642456,0.53,-3.12,-0.58,3.21
6.180620908737183,0.92,-2.48,-2.25,3.47
6.190483093261719,0.98,-1.95,-2.87,3.6
6.20065712928772,0.96,-1.63,-2.4,3.05
6.212093114852905,0.89,-1.61,-1.21,2.2
6.220264196395874,0.91,-1.41,-0.42,1.72
6.230853080749512,1.19,-1.36,-1.02,2.07
6.240415096282959,1.54,-1.39,-1.43,2.51
6.250511884689331,1.62,-1.01,-1.84,2.65
6.2619922161102295,1.23,-0.54,-0.92,1.62
6.2702600955963135,0.91,-0.28,-0.6,1.12
6.280708074569702,0.78,-0.48,-0.42,1.0
6.29071307182312,0.67,-1.05,-0.29,1.27
6.3009350299835205,0.65,-1.64,-0.12,1.76
6.311888933181763,0.43,-1.92,0.26,1.98
6.320785999298096,0.12,-1.78,0.07,1.78
6.330991983413696,-0.12,-1.04,-0.23,1.07
6.34076189994812,0.05,-0.57,-0.58,0.81
6.352179050445557,-0.04,-0.79,-0.72,1.06
6.362377882003784,-0.68,-1.39,-0.69,1.69
6.370452165603638,-1.46,-2.04,-0.41,2.54
6.380372047424316,-1.94,-2.8,-0.32,3.42
6.390841007232666,-2.23,-3.15,-0.32,3.87
6.400907039642334,-2.53,-2.66,-0.74,3.74
6.411900043487549,-2.41,-1.61,-0.84,3.01
6.420886993408203,-2.44,-0.69,-0.09,2.53
6.431233167648315,-2.41,-0.19,0.91,2.58
6.4409239292144775,-1.86,-0.3,1.27,2.27
6.451056003570557,-1.01,-0.61,1.23,1.7
6.462145090103149,-0.57,-0.58,0.97,1.26
6.470654010772705,-0.19,-0.53,0.48,0.73
6.480981111526489,-0.08,-0.55,0.48,0.73
6.491141080856323,-0.16,-0.47,0.65,0.81
6.501291036605835,-0.19,-0.28,-0.02,0.33
6.511677980422974,0.27,-0.11,-0.46,0.54
6.5208740234375,0.57,-0.01,-0.87,1.04
6.53121018409729,0.33,-0.06,-1.23,1.27
6.541152000427246,0.2,0.06,-0.69,0.72
6.55121111869812,0.67,0.3,-0.09,0.73
6.5616161823272705,1.43,0.32,-0.77,1.65
6.570850133895874,1.45,0.65,-1.2,1.99
6.581448078155518,0.53,0.8,-0.51,1.08
6.591213941574097,-0.3,0.77,0.33,0.88
6.6014790534973145,-0.32,0.05,0.8,0.86
6.612755060195923,0.2,-0.55,0.22,0.62
6.621387004852295,0.45,-0.18,0.0,0.48
6.6316869258880615,0.17,0.69,0.25,0.75
6.641311883926392,-0.19,1.01,0.26,1.06
6.651532888412476,-0.16,0.56,0.17,0.6
6.663116216659546,0.14,0.25,-0.41,0.5
6.671037912368774,0.28,-0.01,-0.57,0.63
6.681741952896118,0.74,-0.36,0.09,0.82
6.691431045532227,1.05,-0.36,-0.44,1.19
6.701514959335327,0.99,-0.17,-0.87,1.32
6.713139057159424,0.81,0.14,-0.74,1.1
6.721745014190674,0.22,0.27,-0.46,0.57
6.73208212852478,-0.41,-0.03,-0.04,0.41
6.741524934768677,-0.78,0.0,0.14,0.79
6.751800060272217,-0.89,-0.04,-0.12,0.89
6.762480020523071,-0.74,0.1,-0.23,0.78
6.771383047103882,-0.64,0.05,-0.07,0.64
6.7816081047058105,-0.38,-0.24,0.43,0.62
6.7917160987854,-0.2,0.04,1.74,1.75
6.8019092082977295,-0.91,-0.12,0.99,1.35
6.813049077987671,-0.33,-0.35,0.04,0.48
6.821472883224487,1.15,0.86,-0.51,1.52
6.831830024719238,1.26,-0.98,-4.5,4.77
6.841742038726807,0.1,-1.64,0.86,1.85
6.851832151412964,-0.53,-0.67,3.06,3.17
6.862744092941284,-0.02,0.09,0.12,0.15
6.87148904800415,1.37,1.11,-0.76,1.92
6.881994009017944,1.19,2.13,-1.51,2.86
6.891945123672485,0.27,1.48,-2.43,2.85
6.902216196060181,0.1,0.75,-1.28,1.48
6.912665128707886,-0.02,0.19,-0.1,0.21
6.921709060668945,0.11,-0.77,0.2,0.8
6.931994199752808,0.56,-1.13,1.24,1.76
6.942061185836792,0.68,-0.74,2.2,2.41
6.952059984207153,0.67,-0.12,1.53,1.67
6.962454080581665,0.62,0.27,0.56,0.87
6.971674203872681,0.16,0.42,-0.13,0.46
6.982063055038452,-0.27,0.18,0.04,0.32
6.992202997207642,-0.09,0.05,0.23,0.25
7.002255201339722,0.12,0.04,-0.22,0.25
7.013076066970825,0.23,0.03,-0.38,0.44
7.021867990493774,0.23,0.08,-0.31,0.39
7.03249716758728,0.17,0.18,-0.15,0.28
7.042263031005859,0.04,0.19,-0.11,0.22
7.0521039962768555,-0.09,0.19,-0.11,0.23
7.063433885574341,-0.05,0.13,-0.17,0.21
7.07231593132019,-0.12,-0.05,-0.07,0.14
7.0824480056762695,-0.2,-0.13,0.11,0.26
7.092422008514404,-0.09,-0.05,0.06,0.11
7.102586984634399,-0.13,0.03,0.18,0.22
7.113981008529663,-0.19,-0.03,0.25,0.31
7.122060060501099,-0.16,-0.03,0.19,0.25
7.132715940475464,-0.14,0.13,-0.14,0.23
7.142453908920288,-0.3,0.03,-0.49,0.57
7.15263295173645,0.15,-0.13,-0.11,0.22
7.163459062576294,0.5,-0.08,0.02,0.5
7.172054052352905,0.21,-0.14,0.08,0.26
7.182188034057617,0.06,-0.22,-0.18,0.29
7.192677021026611,0.14,-0.13,-0.05,0.19
7.2025511264801025,0.0,0.01,-0.07,0.07
7.213054895401001,-0.15,0.09,0.02,0.17
7.222377061843872,-0.17,0.1,0.12,0.23
7.2323760986328125,-0.15,-0.04,0.27,0.31
7.242739915847778,-0.06,-0.14,0.38,0.4
7.252508878707886,0.11,0.02,0.61,0.62
7.263562917709351,0.3,-0.01,0.48,0.56
7.272350072860718,0.23,0.0,0.43,0.48
7.282371997833252,0.34,0.0,-0.08,0.34
7.292968988418579,0.24,0.05,-0.34,0.41
7.302520990371704,0.16,0.01,-0.27,0.31
7.312402009963989,0.06,0.09,-0.41,0.42
7.322684049606323,-0.07,0.14,-0.25,0.29
7.332926988601685,-0.07,0.09,0.07,0.13
7.34276008605957,-0.04,-0.1,-0.03,0.11
7.352778196334839,0.22,-0.1,0.13,0.27
7.363352060317993,0.33,-0.1,0.19,0.39
7.372931003570557,0.32,-0.09,-0.08,0.34
7.383744955062866,0.24,-0.04,-0.13,0.27
7.393873929977417,0.03,-0.01,0.12,0.12
7.403898000717163,-0.18,0.04,0.22,0.28
7.413847208023071,-0.14,0.1,0.03,0.17
7.424072027206421,-0.1,0.1,0.11,0.17
7.434938192367554,0.04,0.0,0.2,0.2
7.444090127944946,0.14,-0.01,0.18,0.22
7.453823089599609,0.28,0.03,0.05,0.28
7.463864088058472,0.33,0.08,-0.11,0.35
7.473891019821167,0.24,0.06,-0.19,0.31
7.484171152114868,0.19,-0.03,-0.37,0.41
7.493966102600098,0.23,-0.06,-0.46,0.51
7.503976106643677,0.16,-0.14,0.0,0.21
7.513887166976929,-0.02,-0.11,0.4,0.41
7.524241209030151,-0.19,0.01,0.24,0.3
7.53498387336731,-0.1,-0.02,0.17,0.19
7.544152021408081,0.16,0.13,0.07,0.21
7.553952932357788,0.26,0.11,-0.36,0.45
7.564121961593628,0.51,-0.16,-0.64,0.83
7.574076890945435,0.09,0.35,0.03,0.36
7.584122896194458,-0.45,0.29,0.25,0.59
7.5949928760528564,-0.06,-0.12,-0.63,0.64
7.60424017906189,0.12,0.01,-0.34,0.36
7.614103078842163,0.19,0.25,0.21,0.37
7.624260187149048,0.36,-0.03,-0.41,0.54
7.635158061981201,0.35,-0.35,-0.16,0.52
7.644528150558472,0.14,-0.11,-0.66,0.68
7.654283046722412,-0.09,0.08,-0.24,0.26
7.664427995681763,0.41,0.48,0.93,1.12
7.674249887466431,-0.45,1.39,1.37,2.0
7.68428111076355,-0.41,1.14,2.33,2.62
7.694483041763306,0.31,0.9,2.65,2.81
7.704466104507446,0.27,0.86,2.26,2.43
7.714361906051636,0.39,0.37,0.88,1.03
7.7246620655059814,0.79,0.21,-0.13,0.82
7.735377073287964,1.16,0.38,-0.86,1.49
7.744642019271851,0.96,0.93,-0.97,1.65
7.755104064941406,0.38,1.28,0.02,1.33
7.76468300819397,0.77,1.05,0.03,1.3
7.774631023406982,0.91,1.18,-0.52,1.57
7.784651041030884,1.15,0.88,-0.42,1.5
7.794800043106079,0.84,0.79,-0.75,1.37
7.804647207260132,0.75,0.82,-0.71,1.31
7.814610004425049,0.3,0.55,-0.81,1.02
7.824797868728638,-0.04,0.05,-0.88,0.88
7.835507154464722,-0.19,0.08,-0.89,0.91
7.844980955123901,-0.29,0.01,-0.98,1.02
7.854820966720581,-0.32,0.25,-0.95,1.03
7.8648521900177,-0.04,1.12,-0.54,1.24
7.87468695640564,0.5,1.42,-0.29,1.53
7.885024070739746,1.08,1.61,-1.07,2.21
7.894394159317017,1.05,1.27,-0.96,1.9
7.905384063720703,1.46,0.43,-0.61,1.63
7.914719104766846,1.42,0.01,-0.47,1.49
7.924906969070435,1.3,0.24,-0.31,1.35
7.9357709884643555,0.9,0.76,0.37,1.23
7.945175886154175,1.02,1.34,0.15,1.69
7.954909086227417,0.69,1.97,-0.13,2.09
7.965050935745239,0.41,2.16,0.24,2.21
7.974921941757202,0.21,1.89,0.32,1.92
7.985030889511108,0.12,1.38,0.52,1.47
7.995081186294556,-0.17,1.6,0.51,1.68
8.005100965499878,-0.11,1.26,0.67,1.43
8.01498007774353,-0.07,0.93,0.7,1.16
8.025070905685425,-0.1,0.49,0.56,0.75
8.036007165908813,-0.09,-0.47,1.19,1.28
8.045417070388794,-0.28,-0.47,0.98,1.12
8.055036067962646,-0.21,-0.1,1.48,1.49
8.065120935440063,-0.05,-0.32,0.79,0.85
8.07508111000061,0.38,-0.89,-0.54,1.1
8.085234880447388,0.62,-1.54,-1.23,2.06
8.095563173294067,0.84,-1.58,-1.71,2.47
8.105538129806519,1.03,-1.41,-1.88,2.56
8.115238904953003,0.93,-1.08,-1.69,2.21
8.125303983688354,0.96,-0.41,-1.38,1.73
8.136146068572998,0.73,-0.32,-1.13,1.38
8.145550012588501,0.76,0.23,-0.4,0.88
8.155389070510864,1.08,0.75,0.34,1.35
8.165648221969604,1.02,2.05,-0.19,2.29
8.175264120101929,1.58,1.7,1.04,2.54
8.18546199798584,3.11,1.31,2.54,4.22
8.195486068725586,2.87,1.26,1.65,3.54
8.205474138259888,3.53,0.85,1.0,3.76
8.215415000915527,3.74,0.37,0.49,3.79
8.225538969039917,3.26,-0.07,-0.39,3.28
8.236545085906982,2.67,-0.36,-0.8,2.81
8.24581503868103,2.18,-0.79,-1.37,2.69
8.255412101745605,2.11,-0.94,-2.32,3.27
8.265631914138794,1.34,-1.52,-2.78,3.44
8.275593042373657,1.52,-2.81,-3.83,4.98
8.285705089569092,1.06,-3.13,-3.24,4.62
8.295679092407227,0.56,-3.03,-2.71,4.1
8.305986166000366,0.39,-3.18,-2.98,4.37
8.315615892410278,0.22,-3.5,-3.01,4.62
8.326086044311523,0.33,-3.89,-3.03,4.94
8.336710214614868,0.05,-3.95,-3.44,5.23
8.345982074737549,0.19,-3.61,-2.65,4.48
8.355916023254395,-0.36,-2.99,-1.58,3.4
8.366021871566772,-0.8,-1.8,1.38,2.4
8.375922918319702,-1.58,-0.15,4.56,4.82
8.386045217514038,-0.55,-3.02,-1.1,3.26
8.396331071853638,-1.07,-1.84,-0.49,2.18
8.405979871749878,-0.86,-1.26,0.0,1.52
8.41592288017273,-0.8,-0.75,0.4,1.16
8.426667928695679,-0.9,-0.73,0.45,1.24
8.43703007698059,-1.06,-0.49,0.55,1.29
8.446274042129517,2.02,0.56,-1.72,2.71
8.456098079681396,2.56,-0.48,0.92,2.76
8.466073036193848,-0.58,0.22,0.33,0.7
8.475995063781738,0.12,-0.24,-0.92,0.95
8.486289024353027,0.76,-0.94,-1.38,1.83
8.496440172195435,1.01,-0.66,-1.86,2.21
8.506094217300415,1.46,-0.11,-1.28,1.94
8.516315221786499,1.56,0.58,-0.02,1.66
8.52619194984436,1.53,0.31,1.56,2.2
8.53701400756836,0.98,-0.31,2.02,2.26
8.546325922012329,0.85,-0.66,2.19,2.44
8.55610704421997,0.87,-0.01,2.63,2.77
8.566281080245972,-0.39,0.26,1.62,1.68
8.57628607749939,0.69,-0.71,0.11,0.99
8.586530923843384,1.17,-0.08,0.55,1.29
8.596249103546143,0.12,0.3,0.34,0.46
8.606571912765503,0.6,-0.86,-0.13,1.05
8.616336107254028,0.41,-0.52,0.71,0.97
8.626399040222168,-0.45,-0.12,0.25,0.52
8.637253999710083,-0.33,-0.52,-0.32,0.69
8.646529912948608,-0.44,0.0,0.05,0.44
8.656405210494995,-0.62,0.46,0.45,0.89
8.666450023651123,-0.04,0.11,0.33,0.35
8.676382064819336,0.41,-0.13,0.54,0.69
8.686580896377563,0.52,-1.09,0.5,1.3
8.696478128433228,0.05,-0.58,-0.19,0.61
8.70657992362976,-0.17,-0.22,-0.1,0.29
8.716856002807617,-0.15,0.54,1.32,1.43
8.726984024047852,0.29,0.56,1.78,1.88
8.737425088882446,0.77,-0.17,1.24,1.46
8.74685001373291,0.31,-0.73,0.8,1.12
8.756556987762451,0.01,-0.57,0.56,0.79
8.766763925552368,-0.13,-0.36,0.32,0.49
8.776648044586182,-0.47,-0.42,0.16,0.65
8.786704063415527,-0.67,-0.3,0.25,0.77
8.796772003173828,-0.36,-0.16,0.54,0.66
8.806986093521118,-0.29,-0.01,0.79,0.84
8.816774129867554,-1.07,0.52,0.53,1.3
8.826858043670654,-1.3,0.45,0.47,1.45
8.837621927261353,-0.52,-0.12,1.06,1.18
8.847059965133667,-0.3,-0.21,1.23,1.28
8.856897115707397,-0.71,-0.08,1.23,1.42
8.866894006729126,-1.0,0.05,1.19,1.55
8.876883029937744,-1.02,0.11,1.12,1.51
8.886935949325562,-0.95,0.09,0.82,1.25
8.897432088851929,-0.91,0.06,0.22,0.93
8.907085180282593,-0.86,0.08,-0.1,0.86
8.916906118392944,-0.89,0.2,-0.22,0.93
8.927638053894043,-0.83,0.25,-0.19,0.88
8.937862157821655,-0.84,0.26,-0.06,0.88
8.946763038635254,-0.98,0.48,-0.24,1.11
8.957351922988892,-0.96,0.5,-0.14,1.09
8.967437982559204,-0.91,0.45,-0.18,1.03
8.9776930809021,-0.81,0.38,-0.28,0.93
8.987842082977295,-0.75,0.16,-0.37,0.85
8.997482061386108,-0.64,0.03,-0.33,0.72
9.007232904434204,-0.58,0.2,-0.12,0.62
9.01711106300354,-0.67,0.08,-0.25,0.71
9.027231931686401,-0.63,0.03,-0.25,0.67
9.03811502456665,-0.57,0.02,-0.27,0.63
9.047549962997437,-0.5,-0.01,-0.2,0.53
9.057307958602905,-0.41,-0.01,-0.25,0.48
9.06740117073059,-0.38,0.0,-0.4,0.55
9.077352046966553,-0.38,-0.02,-0.43,0.57
9.087319135665894,-0.38,-0.04,-0.38,0.53
9.097539186477661,-0.41,-0.02,-0.32,0.52
9.10762095451355,-0.45,0.06,-0.24,0.51
9.117364168167114,-0.4,0.02,-0.07,0.4
9.127483129501343,-0.28,-0.09,0.1,0.31
9.138426065444946,-0.06,-0.24,0.28,0.37
9.147928953170776,0.14,-0.4,0.33,0.53
9.15872311592102,0.31,-0.52,0.3,0.67
9.167840003967285,0.4,-0.57,0.23,0.73
9.177525997161865,0.33,-0.4,-0.07,0.52
9.187592029571533,0.15,-0.05,-0.42,0.44
9.197736024856567,-0.02,0.16,-0.49,0.51
9.207759141921997,-0.11,0.06,-0.23,0.26
9.217771053314209,-0.14,-0.12,0.25,0.31
9.227701902389526,-0.07,-0.15,0.55,0.57
9.238786935806274,-0.07,-0.14,0.52,0.54
9.247963190078735,-0.22,-0.06,0.25,0.33
9.257674932479858,-0.37,0.08,-0.01,0.37
9.267872095108032,-0.56,0.22,-0.24,0.64
9.277899980545044,-0.76,0.23,-0.48,0.92
9.287829160690308,-0.8,0.37,-0.46,0.99
9.29793906211853,-0.73,0.47,-0.28,0.91
9.30787205696106,-0.75,0.35,-0.1,0.83
9.317853212356567,-0.82,0.17,-0.04,0.83
9.327938079833984,-0.6,0.09,0.24,0.65
9.338742017745972,-0.47,-0.01,0.46,0.65
9.350579023361206,-0.38,-0.04,0.45,0.59
9.357710123062134,-0.16,0.11,-0.17,0.25
9.368191003799438,-0.13,0.07,-0.59,0.6
9.377970933914185,-0.14,0.08,-0.52,0.54
9.388504028320312,-0.02,0.02,-0.43,0.43
9.398559093475342,0.07,-0.11,-0.33,0.35
9.408756971359253,0.13,-0.1,-0.12,0.2
9.418521165847778,0.01,-0.09,0.14,0.16
9.42923903465271,-0.15,-0.07,0.39,0.42
9.459945917129517,-0.27,0.1,0.49,0.56
9.46100902557373,-0.3,0.21,0.39,0.53
9.461523056030273,-0.24,0.18,0.28,0.41
9.474457025527954,-0.18,0.13,0.18,0.28
9.477850198745728,-0.1,0.07,0.07,0.14
9.487046957015991,-0.01,0.03,-0.05,0.05
9.497007131576538,0.05,-0.01,-0.18,0.18
9.507463216781616,0.08,-0.04,-0.32,0.33
9.526586055755615,0.09,0.02,-0.34,0.35
9.527476072311401,0.08,0.06,-0.3,0.31
9.537610054016113,0.12,-0.02,-0.26,0.28
9.547313928604126,0.09,0.0,-0.26,0.27
9.55757999420166,0.08,0.06,-0.2,0.22
9.567678213119507,0.11,0.08,-0.13,0.18
9.577677011489868,0.12,0.09,-0.13,0.19
9.595242023468018,0.1,0.05,-0.1,0.15
9.597227096557617,0.06,0.04,-0.07,0.1
9.60784101486206,0.0,0.05,-0.07,0.08
9.6177499294281,-0.02,-0.01,-0.09,0.09
9.62753701210022,0.03,-0.03,-0.1,0.1
9.638619184494019,0.1,-0.05,-0.04,0.11
9.648082971572876,0.12,-0.06,-0.02,0.13
9.662867069244385,0.09,-0.05,-0.06,0.11
9.66792607307434,0.1,-0.02,-0.08,0.12
9.678197145462036,0.17,-0.03,-0.08,0.19
9.687886953353882,0.24,-0.08,-0.09,0.26
9.69796109199524,0.28,-0.08,-0.09,0.3
9.708110094070435,0.27,-0.04,-0.16,0.31
9.71946406364441,0.14,0.04,-0.22,0.26
9.729485034942627,0.01,0.12,-0.16,0.2
9.740365028381348,-0.06,0.21,-0.15,0.26
9.748817205429077,-0.04,0.11,-0.11,0.16
9.75944709777832,0.05,0.03,0.01,0.05
9.769852876663208,-0.05,0.04,0.05,0.08
9.779855966567993,-0.09,0.05,0.17,0.19
9.78940200805664,-0.07,0.01,0.28,0.28
9.799341917037964,-0.04,0.0,0.29,0.29
9.809603929519653,0.02,0.0,0.15,0.15
9.819947004318237,0.03,-0.03,0.06,0.07
9.82925295829773,0.05,-0.01,0.07,0.08
9.840097188949585,0.04,0.06,0.07,0.1
9.849980115890503,0.01,0.06,0.06,0.08
9.859476089477539,0.02,0.06,-0.03,0.06
9.86919617652893,0.07,0.05,-0.12,0.14
9.87900996208191,0.13,0.02,-0.19,0.23
9.889486074447632,0.18,-0.02,-0.22,0.28
9.899471044540405,0.17,-0.03,-0.17,0.24
9.909833192825317,0.11,-0.06,-0.11,0.16
9.92014193534851,0.03,-0.06,-0.12,0.13
9.92957615852356,0.01,-0.05,-0.18,0.18
9.940598011016846,0.04,-0.08,-0.21,0.22
9.949724912643433,0.1,-0.1,-0.19,0.23
9.970972061157227,0.16,-0.14,-0.16,0.26
9.971686124801636,0.14,-0.12,-0.01,0.18
9.978790998458862,0.04,-0.06,0.15,0.16
9.988964080810547,-0.05,0.04,0.17,0.18
9.998715162277222,0.1,0.2,0.18,0.28
10.015640020370483,0.16,0.23,-0.04,0.28
10.026320219039917,-0.15,0.17,-0.25,0.33
10.028184175491333,-0.31,0.26,-0.01,0.4
10.043845891952515,-0.33,0.2,0.18,0.42
10.048283100128174,-0.23,0.09,0.08,0.25
10.058327913284302,-0.13,0.1,-0.05,0.17
10.075773000717163,-0.1,0.07,-0.07,0.14
10.079196214675903,-0.12,0.03,-0.02,0.12
10.088276147842407,-0.14,0.0,0.05,0.14
10.098346948623657,-0.13,0.0,0.0,0.13
10.108452081680298,-0.13,0.09,-0.17,0.23
10.119340181350708,-0.1,0.21,-0.21,0.31
10.128865003585815,-0.31,0.13,-0.33,0.47
10.139272928237915,-0.47,0.13,-0.21,0.53
10.148869037628174,-0.47,0.26,-0.05,0.53
10.158946990966797,-0.65,0.76,-0.43,1.08
10.169037103652954,-0.53,0.41,-0.16,0.68
10.179741144180298,-0.26,0.11,-0.05,0.28
10.189932107925415,-0.05,-0.08,0.02,0.09
10.1997811794281,0.09,-0.08,-0.23,0.25
10.209793090820312,0.14,0.32,-0.51,0.61
10.219710111618042,-0.11,0.7,-0.94,1.17
10.229989051818848,-0.1,0.53,-1.07,1.19
10.240747213363647,0.1,0.45,-1.11,1.2
10.250060081481934,0.27,0.24,-1.02,1.08
10.259738206863403,0.35,-0.04,-0.83,0.9
10.26995301246643,0.36,-0.15,-0.55,0.67
10.279857873916626,0.38,-0.2,-0.39,0.58
10.290094137191772,0.38,-0.28,-0.19,0.5
10.300018072128296,0.29,-0.4,0.09,0.5
10.310046911239624,0.19,-0.49,0.41,0.66
10.320597887039185,0.16,-0.62,0.62,0.89
10.3301420211792,0.11,-0.58,0.71,0.92
10.340932130813599,0.16,-0.35,0.63,0.73
10.350518941879272,0.29,-0.34,0.53,0.69
10.360368013381958,0.47,-0.41,0.3,0.69
10.370105981826782,0.62,-0.45,0.17,0.78
10.3801109790802,0.7,-0.45,0.04,0.83
10.390259981155396,0.57,-0.21,0.01,0.6
10.400201082229614,0.29,0.02,0.02,0.29
10.41040301322937,0.13,0.15,0.04,0.2
10.420140981674194,0.06,0.21,0.03,0.22
10.430624008178711,0.0,0.21,0.01,0.21
10.442172050476074,-0.03,0.21,0.09,0.23
10.450758218765259,-0.07,0.24,0.04,0.25
10.460347890853882,-0.07,0.27,-0.06,0.28
10.470471143722534,-0.03,0.28,-0.12,0.3
10.480401039123535,0.02,0.21,-0.13,0.24
10.490409135818481,0.03,0.16,-0.1,0.19
10.500396966934204,0.0,0.12,-0.05,0.13
10.510524988174438,-0.03,0.12,0.0,0.12
10.520418882369995,-0.04,0.11,0.05,0.12
10.530574083328247,-0.01,0.08,0.03,0.08
10.541287183761597,0.01,0.05,-0.02,0.05
10.550758123397827,0.01,0.02,-0.05,0.05
10.560510873794556,0.03,0.07,-0.09,0.11
10.570622205734253,0.02,0.09,-0.13,0.15
10.580495119094849,0.02,0.09,-0.18,0.2
10.59070897102356,0.04,0.09,-0.2,0.22
10.600795984268188,0.05,0.09,-0.21,0.23
10.610880136489868,0.06,0.06,-0.18,0.19
10.620668172836304,0.1,0.0,-0.07,0.12
10.63073205947876,0.11,0.02,-0.04,0.11
10.641533136367798,0.1,0.06,-0.09,0.14
10.650950193405151,0.09,0.05,-0.16,0.19
10.66072392463684,0.12,0.05,-0.28,0.3
10.67080307006836,0.13,0.09,-0.33,0.36
10.680783033370972,0.1,0.07,-0.25,0.27
10.690950155258179,0.01,0.07,-0.14,0.15
10.70081114768982,-0.05,0.08,-0.04,0.1
10.71091604232788,-0.03,0.04,-0.08,0.09
10.720854997634888,0.05,0.01,-0.18,0.18
10.731011152267456,0.17,-0.03,-0.18,0.24
10.741780042648315,0.23,-0.05,-0.1,0.25
10.751196146011353,0.25,-0.05,-0.07,0.26
10.76097321510315,0.25,-0.07,-0.12,0.28
10.771206140518188,0.25,-0.07,-0.1,0.27
10.780987024307251,0.23,-0.05,-0.02,0.23
10.791040182113647,0.14,0.01,0.02,0.14
10.801131963729858,0.06,0.05,0.08,0.11
10.811177015304565,0.0,0.1,0.09,0.13
10.821323156356812,-0.06,0.15,0.08,0.18
10.831505060195923,-0.06,0.14,0.07,0.16
10.842058897018433,-0.02,0.1,-0.03,0.1
10.851330041885376,0.02,0.07,-0.06,0.09
10.862789869308472,0.06,0.06,-0.11,0.13
10.871135950088501,0.15,0.08,-0.85,0.86
10.881916999816895,0.12,0.0,-0.38,0.39
10.891494989395142,-0.02,-0.02,-0.06,0.06
10.901350021362305,-0.04,0.0,0.29,0.29
10.911596059799194,-0.08,0.04,0.44,0.44
10.921634912490845,-0.27,0.06,0.58,0.64
10.931916952133179,-0.4,0.09,0.75,0.85
